{
  "resourceType": "Bundle",
  "id": "Scenario2Bundle",
  "meta": {
    "profile": [
      "http://hl7.org/fhir/us/vaccinecredential/StructureDefinition/vaccine-credential-bundle"
    ]
  },
  "type": "collection",
  "entry": [
    {
      "fullUrl": "http://example.org/fhir/Patient/Scenario2Patient",
      "resource": {
        "resourceType": "Patient",
        "id": "Scenario2Patient",
        "meta": {
          "profile": [
            "http://hl7.org/fhir/us/vaccinecredential/StructureDefinition/vaccine-credential-patient"
          ]
        },
        "identifier": [
          {
            "use": "usual",
            "type": {
              "coding": [
                {
                  "system": "http://terminology.hl7.org/CodeSystem/v2-0203",
                  "code": "MR",
                  "display": "Medical Record Number"
                }
              ]
            },
            "system": "http://hospital.example.org",
            "value": "m421"
          }
        ],
        "name": [
          {
            "family": "Anyperson",
            "given": [
              "Jane",
              "C."
            ]
          }
        ],
        "gender": "male",
        "birthDate": "1961-01-20",
        "address": [
          {
            "line": [
              "321 State St"
            ],
            "city": "Somecity",
            "postalCode": "12345",
            "country": "US"
          }
        ],
        "contact": [
          {
            "telecom": [
              {
                "system": "phone",
                "value": "555-555-5555",
                "use": "home"
              },
              {
                "system": "email",
                "value": "jane.anyperson@example.com"
              }
            ]
          }
        ],
        "communication": [
          {
            "language": {
              "coding": [
                {
                  "system": "urn:ietf:bcp:47",
                  "code": "en-US",
                  "display": "English (Region=United States)"
                }
              ]
            }
          }
        ]
      }
    },
    {
      "fullUrl": "http://example.org/fhir/Immunization/Scenario2Immunization1",
      "resource": {
        "resourceType": "Immunization",
        "id": "Scenario2Immunization1",
        "meta": {
          "profile": [
            "http://hl7.org/fhir/us/vaccinecredential/StructureDefinition/vaccine-credential-immunization"
          ]
        },
        "status": "completed",
        "vaccineCode": {
          "coding": [
            {
              "system": "http://hl7.org/fhir/sid/cvx",
              "code": "208",
              "display": "COVID-19, mRNA, LNP-S, PF, 30 mcg/0.3 mL dose"
            }
          ]
        },
        "patient": {
          "reference": "Patient/Scenario2Patient"
        },
        "occurrenceDateTime": "2021-01-01T11:45:33+11:00",
        "primarySource": true,
        "location": {
          "reference": "Location/Scenario2Location"
        },
        "lotNumber": "Lot #0000001",
        "protocolApplied": [
          {
            "targetDisease": [
              {
                "coding": [
                  {
                    "system": "http://snomed.info/sct",
                    "code": "840539006",
                    "display": "COVID-19"
                  }
                ]
              }
            ],
            "doseNumberPositiveInt": 1,
            "seriesDosesPositiveInt": 2
          }
        ]
      }
    },
    {
      "fullUrl": "http://example.org/fhir/Immunization/Scenario2Immunization2",
      "resource": {
        "resourceType": "Immunization",
        "id": "Scenario2Immunization2",
        "meta": {
          "profile": [
            "http://hl7.org/fhir/us/vaccinecredential/StructureDefinition/vaccine-credential-immunization"
          ]
        },
        "status": "completed",
        "vaccineCode": {
          "coding": [
            {
              "system": "http://hl7.org/fhir/sid/cvx",
              "code": "208",
              "display": "COVID-19, mRNA, LNP-S, PF, 30 mcg/0.3 mL dose"
            }
          ]
        },
        "patient": {
          "reference": "Patient/Scenario2Patient"
        },
        "occurrenceDateTime": "2021-01-29T11:45:33+11:00",
        "primarySource": true,
        "location": {
          "reference": "Location/Scenario2Location"
        },
        "lotNumber": "Lot #0000007",
        "protocolApplied": [
          {
            "targetDisease": [
              {
                "coding": [
                  {
                    "system": "http://snomed.info/sct",
                    "code": "840539006",
                    "display": "COVID-19"
                  }
                ]
              }
            ],
            "doseNumberPositiveInt": 2,
            "seriesDosesPositiveInt": 2
          }
        ]
      }
    },
    {
      "fullUrl": "http://example.org/fhir/Immunization/Scenario2Location",
      "resource": {
        "resourceType": "Location",
        "id": "Scenario2Location",
        "meta": {
          "profile": [
            "http://hl7.org/fhir/us/core/StructureDefinition/us-core-location"
          ]
        },
        "name": "ABC Pharmacy"
      }
    }
  ]
}
