<?xml version="1.0" encoding="UTF-8"?>

<Bundle xmlns="http://hl7.org/fhir">
  <id value="Scenario1Bundle"/>
  <meta>
    <profile value="http://hl7.org/fhir/us/vaccinecredential/StructureDefinition/vaccine-credential-bundle"/>
  </meta>
  <type value="collection"/>
  <entry>
    <fullUrl value="http://example.org/fhir/Patient/Scenario1Patient"/>
    <resource>
      <Patient>
        <id value="Scenario1Patient"/>
        <meta>
          <profile value="http://hl7.org/fhir/us/vaccinecredential/StructureDefinition/vaccine-credential-patient"/>
        </meta>
        <identifier>
          <use value="usual"/>
          <type>
            <coding>
              <system value="http://terminology.hl7.org/CodeSystem/v2-0203"/>
              <code value="MR"/>
              <display value="Medical Record Number"/>
            </coding>
          </type>
          <system value="http://hospital.example.org"/>
          <value value="m123"/>
        </identifier>
        <name>
          <family value="Anyperson"/>
          <given value="John"/>
          <given value="B."/>
        </name>
        <gender value="male"/>
        <birthDate value="1951-01-20"/>
        <address>
          <line value="123 Main St"/>
          <city value="Anytown"/>
          <postalCode value="12345"/>
          <country value="US"/>
        </address>
        <contact>
          <telecom>
            <system value="phone"/>
            <value value="555-555-5555"/>
            <use value="home"/>
          </telecom>
          <telecom>
            <system value="email"/>
            <value value="john.anyperson@example.com"/>
          </telecom>
        </contact>
        <communication>
          <language>
            <coding>
              <system value="urn:ietf:bcp:47"/>
              <code value="en-US"/>
              <display value="English (Region=United States)"/>
            </coding>
          </language>
        </communication>
      </Patient>
    </resource>
  </entry>
  <entry>
    <fullUrl value="http://example.org/fhir/Immunization/Scenario1Immunization1"/>
    <resource>
      <Immunization>
        <id value="Scenario1Immunization1"/>
        <meta>
          <profile value="http://hl7.org/fhir/us/vaccinecredential/StructureDefinition/vaccine-credential-immunization"/>
        </meta>
        <status value="completed"/>
        <vaccineCode>
          <coding>
            <system value="http://hl7.org/fhir/sid/cvx"/>
            <code value="207"/>
            <display value="COVID-19, mRNA, LNP-S, PF, 100 mcg/0.5 mL dose"/>
          </coding>
        </vaccineCode>
        <patient>
          <reference value="Patient/Scenario1Patient"/>
        </patient>
        <occurrenceDateTime value="2021-01-01T11:45:33+11:00"/>
        <primarySource value="true"/>
        <location>
          <reference value="Location/Scenario1Location"/>
        </location>
        <lotNumber value="Lot #0000001"/>
        <protocolApplied>
          <targetDisease>
            <coding>
              <system value="http://snomed.info/sct"/>
              <code value="840539006"/>
              <display value="COVID-19"/>
            </coding>
          </targetDisease>
          <doseNumberPositiveInt value="1"/>
          <seriesDosesPositiveInt value="2"/>
        </protocolApplied>
      </Immunization>
    </resource>
  </entry>
  <entry>
    <fullUrl value="http://example.org/fhir/Immunization/Scenario1Immunization2"/>
    <resource>
      <Immunization>
        <id value="Scenario1Immunization2"/>
        <meta>
          <profile value="http://hl7.org/fhir/us/vaccinecredential/StructureDefinition/vaccine-credential-immunization"/>
        </meta>
        <status value="completed"/>
        <vaccineCode>
          <coding>
            <system value="http://hl7.org/fhir/sid/cvx"/>
            <code value="207"/>
            <display value="COVID-19, mRNA, LNP-S, PF, 100 mcg/0.5 mL dose"/>
          </coding>
        </vaccineCode>
        <patient>
          <reference value="Patient/Scenario1Patient"/>
        </patient>
        <occurrenceDateTime value="2021-01-29T11:45:33+11:00"/>
        <primarySource value="true"/>
        <location>
          <reference value="Location/Scenario1Location"/>
        </location>
        <lotNumber value="Lot #0000007"/>
        <protocolApplied>
          <targetDisease>
            <coding>
              <system value="http://snomed.info/sct"/>
              <code value="840539006"/>
              <display value="COVID-19"/>
            </coding>
          </targetDisease>
          <doseNumberPositiveInt value="2"/>
          <seriesDosesPositiveInt value="2"/>
        </protocolApplied>
      </Immunization>
    </resource>
  </entry>
  <entry>
    <fullUrl value="http://example.org/fhir/Immunization/Scenario1Location"/>
    <resource>
      <Location>
        <id value="Scenario1Location"/>
        <meta>
          <profile value="http://hl7.org/fhir/us/core/StructureDefinition/us-core-location"/>
        </meta>
        <name value="ABC Pharmacy"/>
      </Location>
    </resource>
  </entry>
</Bundle>
