<?xml version="1.0" encoding="UTF-8"?>

<Bundle xmlns="http://hl7.org/fhir">
  <id value="Scenario2Bundle"/>
  <meta>
    <profile value="http://hl7.org/fhir/us/vaccinecredential/StructureDefinition/vaccine-credential-bundle"/>
  </meta>
  <type value="collection"/>
  <entry>
    <fullUrl value="http://example.org/fhir/Patient/Scenario2Patient"/>
    <resource>
      <Patient>
        <id value="Scenario2Patient"/>
        <meta>
          <profile value="http://hl7.org/fhir/us/vaccinecredential/StructureDefinition/vaccine-credential-patient"/>
        </meta>
        <text>
          <status value="generated"/><div xmlns="http://www.w3.org/1999/xhtml"><p><b>Generated Narrative</b></p><p><b>identifier</b>: Medical Record Number: m421 (USUAL)</p><p><b>name</b>: Jane C. Anyperson </p><p><b>gender</b>: male</p><p><b>birthDate</b>: 1961-01-20</p><p><b>address</b>: 321 State St Somecity 12345 US </p><h3>Contacts</h3><table class="grid"><tr><td>-</td><td><b>Telecom</b></td></tr><tr><td>*</td><td>ph: 555-555-5555(HOME), <a href="mailto:jane.anyperson@example.com">jane.anyperson@example.com</a></td></tr></table><h3>Communications</h3><table class="grid"><tr><td>-</td><td><b>Language</b></td></tr><tr><td>*</td><td><span title="Codes: {urn:ietf:bcp:47 en-US}">English</span></td></tr></table></div>
        </text>
        <identifier>
          <use value="usual"/>
          <type>
            <coding>
              <system value="http://terminology.hl7.org/CodeSystem/v2-0203"/>
              <code value="MR"/>
              <display value="Medical Record Number"/>
            </coding>
          </type>
          <system value="http://hospital.example.org"/>
          <value value="m421"/>
        </identifier>
        <name>
          <family value="Anyperson"/>
          <given value="Jane"/>
          <given value="C."/>
        </name>
        <gender value="male"/>
        <birthDate value="1961-01-20"/>
        <address>
          <line value="321 State St"/>
          <city value="Somecity"/>
          <postalCode value="12345"/>
          <country value="US"/>
        </address>
        <contact>
          <telecom>
            <system value="phone"/>
            <value value="555-555-5555"/>
            <use value="home"/>
          </telecom>
          <telecom>
            <system value="email"/>
            <value value="jane.anyperson@example.com"/>
          </telecom>
        </contact>
        <communication>
          <language>
            <coding>
              <system value="urn:ietf:bcp:47"/>
              <code value="en-US"/>
              <display value="English (Region=United States)"/>
            </coding>
            <text value="English"/>
          </language>
        </communication>
      </Patient>
    </resource>
  </entry>
  <entry>
    <fullUrl value="http://example.org/fhir/Immunization/Scenario2Immunization1"/>
    <resource>
      <Immunization>
        <id value="Scenario2Immunization1"/>
        <meta>
          <profile value="http://hl7.org/fhir/us/vaccinecredential/StructureDefinition/vaccine-credential-immunization"/>
        </meta>
        <text>
          <status value="generated"/><div xmlns="http://www.w3.org/1999/xhtml"><p><b>Generated Narrative</b></p><p><b>status</b>: completed</p><p><b>vaccineCode</b>: <span title="Codes: {http://hl7.org/fhir/sid/cvx 208}">COVID-19, mRNA, LNP-S, PF, 30 mcg/0.3 mL dose</span></p><p><b>patient</b>: <a href="#Patient_Scenario2Patient">See above (Patient/Scenario2Patient)</a></p><p><b>occurrence</b>: Jan 1, 2021, 12:45:33 AM</p><p><b>primarySource</b>: true</p><p><b>location</b>: <a href="#Location_Scenario2Location">See above (Location/Scenario2Location)</a></p><p><b>lotNumber</b>: Lot #0000001</p><h3>ProtocolApplieds</h3><table class="grid"><tr><td>-</td><td><b>TargetDisease</b></td><td><b>DoseNumber[x]</b></td><td><b>SeriesDoses[x]</b></td></tr><tr><td>*</td><td><span title="Codes: {http://snomed.info/sct 840539006}">COVID-19</span></td><td>1</td><td>2</td></tr></table></div>
        </text>
        <status value="completed"/>
        <vaccineCode>
          <coding>
            <system value="http://hl7.org/fhir/sid/cvx"/>
            <code value="208"/>
            <display value="COVID-19, mRNA, LNP-S, PF, 30 mcg/0.3 mL dose"/>
          </coding>
        </vaccineCode>
        <patient>
          <reference value="Patient/Scenario2Patient"/>
        </patient>
        <occurrenceDateTime value="2021-01-01T11:45:33+11:00"/>
        <primarySource value="true"/>
        <location>
          <reference value="Location/Scenario2Location"/>
        </location>
        <lotNumber value="Lot #0000001"/>
        <protocolApplied>
          <targetDisease>
            <coding>
              <system value="http://snomed.info/sct"/>
              <code value="840539006"/>
              <display value="COVID-19"/>
            </coding>
          </targetDisease>
          <doseNumberPositiveInt value="1"/>
          <seriesDosesPositiveInt value="2"/>
        </protocolApplied>
      </Immunization>
    </resource>
  </entry>
  <entry>
    <fullUrl value="http://example.org/fhir/Immunization/Scenario2Immunization2"/>
    <resource>
      <Immunization>
        <id value="Scenario2Immunization2"/>
        <meta>
          <profile value="http://hl7.org/fhir/us/vaccinecredential/StructureDefinition/vaccine-credential-immunization"/>
        </meta>
        <text>
          <status value="generated"/><div xmlns="http://www.w3.org/1999/xhtml"><p><b>Generated Narrative</b></p><p><b>status</b>: completed</p><p><b>vaccineCode</b>: <span title="Codes: {http://hl7.org/fhir/sid/cvx 208}">COVID-19, mRNA, LNP-S, PF, 30 mcg/0.3 mL dose</span></p><p><b>patient</b>: <a href="#Patient_Scenario2Patient">See above (Patient/Scenario2Patient)</a></p><p><b>occurrence</b>: Jan 29, 2021, 12:45:33 AM</p><p><b>primarySource</b>: true</p><p><b>location</b>: <a href="#Location_Scenario2Location">See above (Location/Scenario2Location)</a></p><p><b>lotNumber</b>: Lot #0000007</p><h3>ProtocolApplieds</h3><table class="grid"><tr><td>-</td><td><b>TargetDisease</b></td><td><b>DoseNumber[x]</b></td><td><b>SeriesDoses[x]</b></td></tr><tr><td>*</td><td><span title="Codes: {http://snomed.info/sct 840539006}">COVID-19</span></td><td>2</td><td>2</td></tr></table></div>
        </text>
        <status value="completed"/>
        <vaccineCode>
          <coding>
            <system value="http://hl7.org/fhir/sid/cvx"/>
            <code value="208"/>
            <display value="COVID-19, mRNA, LNP-S, PF, 30 mcg/0.3 mL dose"/>
          </coding>
        </vaccineCode>
        <patient>
          <reference value="Patient/Scenario2Patient"/>
        </patient>
        <occurrenceDateTime value="2021-01-29T11:45:33+11:00"/>
        <primarySource value="true"/>
        <location>
          <reference value="Location/Scenario2Location"/>
        </location>
        <lotNumber value="Lot #0000007"/>
        <protocolApplied>
          <targetDisease>
            <coding>
              <system value="http://snomed.info/sct"/>
              <code value="840539006"/>
              <display value="COVID-19"/>
            </coding>
          </targetDisease>
          <doseNumberPositiveInt value="2"/>
          <seriesDosesPositiveInt value="2"/>
        </protocolApplied>
      </Immunization>
    </resource>
  </entry>
  <entry>
    <fullUrl value="http://example.org/fhir/Immunization/Scenario2Location"/>
    <resource>
      <Location>
        <id value="Scenario2Location"/>
        <meta>
          <profile value="http://hl7.org/fhir/us/core/StructureDefinition/us-core-location"/>
        </meta>
        <text>
          <status value="generated"/><div xmlns="http://www.w3.org/1999/xhtml"><p><b>Generated Narrative</b></p><p><b>name</b>: ABC Pharmacy</p></div>
        </text>
        <name value="ABC Pharmacy"/>
      </Location>
    </resource>
  </entry>
</Bundle>